Folder: graph2

File: FapatiteJ.csv
2-theta,Experimental XRD,Fit,Difference,Background
1.50000E+1,6.09000E+2,6.15139E+2,-6.13947E+0,6.15139E+2
1.56400E+1,5.83000E+2,5.83722E+2,-7.22168E-1,5.83722E+2
1.62800E+1,5.66000E+2,5.58345E+2,7.65515E+0,5.53769E+2
1.69200E+1,6.16000E+2,5.78856E+2,3.71437E+1,5.25254E+2
1.75600E+1,5.01000E+2,4.98147E+2,2.85266E+0,4.98147E+2
1.82000E+1,4.68000E+2,4.72417E+2,-4.41693E+0,4.72417E+2
1.88400E+1,6.47000E+2,7.21460E+2,-7.44601E+1,4.48027E+2
1.94800E+1,4.53000E+2,4.24940E+2,2.80595E+1,4.24940E+2
2.01200E+1,4.08000E+2,4.03116E+2,4.88358E+0,4.03116E+2
2.07600E+1,4.09000E+2,3.82514E+2,2.64859E+1,3.82514E+2
2.14000E+1,3.62000E+2,3.73662E+2,-1.16615E+1,3.63090E+2
2.20400E+1,3.82000E+2,3.68325E+2,1.36747E+1,3.44802E+2
2.26800E+1,3.81000E+2,3.73013E+2,7.98660E+0,3.27603E+2
2.33200E+1,3.15000E+2,3.13670E+2,1.33020E+0,3.11449E+2
2.39600E+1,2.95000E+2,2.96295E+2,-1.29544E+0,2.96295E+2
2.46000E+1,2.92000E+2,2.82096E+2,9.90396E+0,2.82096E+2
2.52400E+1,2.78000E+2,3.11025E+2,-3.30247E+1,2.68806E+2
2.58800E+1,4.44500E+3,4.85823E+3,-4.13225E+2,2.56381E+2
2.65200E+1,2.79000E+2,2.44775E+2,3.42248E+1,2.44775E+2
2.71600E+1,2.64000E+2,2.33947E+2,3.00533E+1,2.33947E+2
2.78000E+1,2.44000E+2,2.63076E+2,-1.90764E+1,2.23852E+2
2.84400E+1,2.19000E+2,2.32410E+2,-1.34103E+1,2.14449E+2
2.90800E+1,2.43500E+3,2.31768E+3,1.17319E+2,2.05698E+2
2.97200E+1,1.89000E+2,1.97558E+2,-8.55759E+0,1.97558E+2
3.03600E+1,1.93000E+2,1.89991E+2,3.00925E+0,1.89991E+2
3.10000E+1,1.97000E+2,1.82960E+2,1.40402E+1,1.82960E+2
3.16400E+1,7.06000E+2,6.73524E+2,3.24758E+1,1.76429E+2
3.22800E+1,4.68200E+3,4.85733E+3,-1.75333E+2,1.70363E+2
3.29200E+1,1.00100E+3,1.06414E+3,-6.31350E+1,1.64730E+2
3.35600E+1,2.24000E+2,1.97062E+2,2.69381E+1,1.59498E+2
3.42000E+1,1.83600E+3,1.65778E+3,1.78219E+2,1.54637E+2
3.48400E+1,1.60000E+2,1.50117E+2,9.88300E+0,1.50117E+2
3.54800E+1,2.11000E+2,2.27338E+2,-1.63380E+1,1.45912E+2
3.61200E+1,1.55000E+2,1.43296E+2,1.17036E+1,1.41996E+2
3.67600E+1,1.26000E+2,1.38344E+2,-1.23444E+1,1.38344E+2
3.74000E+1,1.33000E+2,1.34935E+2,-1.93457E+0,1.34935E+2
3.80400E+1,9.20000E+1,1.32327E+2,-4.03272E+1,1.31745E+2
3.86800E+1,1.27000E+2,1.29268E+2,-2.26797E+0,1.28756E+2
3.93200E+1,6.25000E+2,6.64710E+2,-3.97102E+1,1.25948E+2
3.99600E+1,4.43300E+3,4.19499E+3,2.38010E+2,1.23304E+2
4.06000E+1,7.63000E+2,8.35445E+2,-7.24445E+1,1.20808E+2
4.12400E+1,9.80000E+1,1.18801E+2,-2.08008E+1,1.18446E+2
4.18800E+1,1.40000E+2,1.35728E+2,4.27158E+0,1.16203E+2
4.25200E+1,2.64000E+2,2.54963E+2,9.03654E+0,1.14067E+2
4.31600E+1,1.14000E+2,1.12028E+2,1.97230E+0,1.12028E+2
4.38000E+1,5.87000E+2,5.78885E+2,8.11475E+0,1.10074E+2
4.44400E+1,1.20000E+2,1.27254E+2,-7.25449E+0,1.08197E+2
4.50800E+1,1.42000E+2,1.24441E+2,1.75592E+1,1.06388E+2
4.57200E+1,1.09000E+2,1.11303E+2,-2.30291E+0,1.04640E+2
4.63600E+1,1.28000E+2,1.31129E+2,-3.12917E+0,1.02946E+2
4.70000E+1,1.14200E+3,1.01643E+3,1.25569E+2,1.01302E+2
4.76400E+1,1.14000E+2,9.97017E+1,1.42983E+1,9.97017E+1
4.82800E+1,9.04000E+2,9.93582E+2,-8.95815E+1,9.81414E+1
4.89200E+1,3.70000E+2,3.36620E+2,3.33796E+1,9.66177E+1
4.95600E+1,3.25500E+3,3.36361E+3,-1.08609E+2,9.51277E+1
5.02000E+1,1.01000E+2,1.07072E+2,-6.07201E+0,9.36690E+1
5.08400E+1,1.77900E+3,1.85191E+3,-7.29132E+1,9.22399E+1
5.14800E+1,1.94600E+3,1.57413E+3,3.71871E+2,9.08390E+1
5.21200E+1,3.33000E+2,3.39051E+2,-6.05112E+0,8.94655E+1
5.27600E+1,1.37000E+2,1.38961E+2,-1.96135E+0,8.81189E+1
5.34000E+1,2.37000E+2,2.48180E+2,-1.11798E+1,8.67989E+1
5.40400E+1,8.90000E+1,8.63297E+1,2.67035E+0,8.55055E+1
5.46800E+1,9.20000E+1,8.67503E+1,5.24967E+0,8.42393E+1
5.53200E+1,7.00000E+1,8.30006E+1,-1.30006E+1,8.30006E+1
5.59600E+1,2.16000E+2,2.41178E+2,-2.51780E+1,8.17902E+1
5.66000E+1,1.49000E+2,1.35646E+2,1.33535E+1,8.06089E+1
5.72400E+1,7.34000E+2,7.12955E+2,2.10447E+1,7.94576E+1
5.78800E+1,7.10000E+1,8.14740E+1,-1.04740E+1,7.83375E+1
5.85200E+1,2.62000E+2,2.27789E+2,3.42115E+1,7.72495E+1
5.91600E+1,1.13000E+2,1.13203E+2,-2.02866E-1,7.61947E+1
5.98000E+1,7.50000E+1,8.07448E+1,-5.74479E+0,7.51741E+1
6.04400E+1,4.30000E+2,4.55129E+2,-2.51294E+1,7.41889E+1
6.10800E+1,8.40000E+1,8.99981E+1,-5.99812E+0,7.32399E+1
6.17200E+1,6.72000E+2,6.30578E+2,4.14217E+1,7.23281E+1
6.23600E+1,7.50000E+1,7.80371E+1,-3.03706E+0,7.14543E+1
6.30000E+1,1.59000E+2,1.19274E+2,3.97262E+1,7.06191E+1
6.36400E+1,1.36000E+2,1.45656E+2,-9.65622E+0,6.98233E+1
6.42800E+1,6.29000E+2,7.10058E+2,-8.10578E+1,6.90672E+1
6.49200E+1,8.50000E+1,8.08620E+1,4.13798E+0,6.83512E+1
6.55600E+1,6.69000E+2,6.77438E+2,-8.43787E+0,6.76754E+1
6.62000E+1,8.30000E+1,7.19756E+1,1.10244E+1,6.70399E+1
6.68400E+1,2.17000E+2,2.25477E+2,-8.47672E+0,6.64446E+1
6.74800E+1,7.00000E+1,6.61984E+1,3.80163E+0,6.58893E+1
6.81200E+1,8.00000E+1,6.63777E+1,1.36223E+1,6.53734E+1
6.87600E+1,8.30000E+1,9.47300E+1,-1.17300E+1,6.48964E+1
6.94000E+1,1.23000E+2,1.29218E+2,-6.21846E+0,6.44577E+1
7.00400E+1,2.70000E+2,2.77488E+2,-7.48767E+0,6.40563E+1
7.06800E+1,1.05000E+2,9.83511E+1,6.64892E+0,6.36912E+1
7.13200E+1,1.10000E+2,1.00362E+2,9.63827E+0,6.33613E+1
7.19600E+1,7.06000E+2,6.24951E+2,8.10486E+1,6.30653E+1
7.26000E+1,3.25000E+2,3.29686E+2,-4.68604E+0,6.28018E+1
7.32400E+1,1.32000E+2,1.03913E+2,2.80870E+1,6.25693E+1
7.38800E+1,1.01000E+2,8.09598E+1,2.00402E+1,6.23662E+1
7.45200E+1,3.47000E+2,3.43964E+2,3.03604E+0,6.21909E+1
7.51600E+1,1.03000E+2,1.00137E+2,2.86268E+0,6.20416E+1
7.58000E+1,5.31000E+2,5.42684E+2,-1.16841E+1,6.19165E+1
7.64400E+1,4.19000E+2,4.11162E+2,7.83832E+0,6.18137E+1
7.70800E+1,3.62000E+2,3.36393E+2,2.56070E+1,6.17312E+1
7.77200E+1,3.31000E+2,3.63441E+2,-3.24409E+1,6.16672E+1
7.83600E+1,2.21000E+2,2.12257E+2,8.74304E+0,6.16198E+1
7.90000E+1,9.50000E+1,9.13264E+1,3.67361E+0,6.15869E+1
7.96400E+1,6.40000E+1,6.15666E+1,2.43338E+0,6.15666E+1
8.02800E+1,6.80000E+1,6.20312E+1,5.96879E+0,6.15571E+1
8.09200E+1,9.00000E+1,9.72415E+1,-7.24155E+0,6.15565E+1
8.15600E+1,1.09000E+2,9.99783E+1,9.02165E+0,6.15629E+1
8.22000E+1,3.92000E+2,4.01938E+2,-9.93774E+0,6.15747E+1
8.28400E+1,9.60000E+1,1.00605E+2,-4.60533E+0,6.15901E+1
8.34800E+1,3.04000E+2,2.94759E+2,9.24097E+0,6.16076E+1
8.41200E+1,1.17000E+2,1.34284E+2,-1.72841E+1,6.16257E+1
8.47600E+1,3.89000E+2,3.91086E+2,-2.08575E+0,6.16430E+1
8.54000E+1,7.00000E+1,8.59407E+1,-1.59407E+1,6.16583E+1
8.60400E+1,1.49000E+2,1.55276E+2,-6.27556E+0,6.16703E+1
8.66800E+1,7.10000E+1,6.69726E+1,4.02737E+0,6.16782E+1
8.73200E+1,3.23000E+2,3.11159E+2,1.18413E+1,6.16810E+1
8.79600E+1,2.07000E+2,2.02475E+2,4.52525E+0,6.16779E+1
8.86000E+1,1.02000E+2,9.91670E+1,2.83302E+0,6.16684E+1
8.92400E+1,6.98000E+2,6.56189E+2,4.18110E+1,6.16519E+1
8.98800E+1,8.50000E+1,8.78382E+1,-2.83822E+0,6.16283E+1
9.05200E+1,6.80000E+1,7.02272E+1,-2.22718E+0,6.15973E+1
9.11600E+1,5.00000E+1,6.93467E+1,-1.93467E+1,6.15589E+1
9.18000E+1,2.75000E+2,2.62544E+2,1.24557E+1,6.15132E+1
9.24400E+1,1.03000E+2,9.74873E+1,5.51272E+0,6.14605E+1
9.30800E+1,9.20000E+1,1.13386E+2,-2.13859E+1,6.14011E+1
9.37200E+1,8.80000E+1,8.42942E+1,3.70584E+0,6.13356E+1
9.43600E+1,1.07000E+2,1.08984E+2,-1.98418E+0,6.12645E+1
9.50000E+1,5.30000E+1,6.20330E+1,-9.03298E+0,6.11887E+1
9.56400E+1,7.60000E+1,7.94453E+1,-3.44534E+0,6.11090E+1
9.62800E+1,1.34000E+2,1.30738E+2,3.26221E+0,6.10263E+1
9.69200E+1,1.57000E+2,1.46255E+2,1.07451E+1,6.09416E+1
9.75600E+1,2.43000E+2,2.35957E+2,7.04337E+0,6.08560E+1
9.82000E+1,8.90000E+1,8.41745E+1,4.82552E+0,6.07707E+1
9.88400E+1,1.25000E+2,1.14157E+2,1.08426E+1,6.06867E+1
9.94800E+1,2.35000E+2,2.26929E+2,8.07104E+0,6.06053E+1
1.00120E+2,1.82000E+2,2.01071E+2,-1.90710E+1,6.05277E+1
1.00760E+2,1.59000E+2,1.42611E+2,1.63886E+1,6.04550E+1
1.01400E+2,1.79000E+2,1.79793E+2,-7.92557E-1,6.03885E+1
1.02040E+2,9.00000E+1,7.95008E+1,1.04992E+1,6.03293E+1
1.02680E+2,6.50000E+1,6.14549E+1,3.54512E+0,6.02785E+1
1.03320E+2,1.19000E+2,1.28331E+2,-9.33128E+0,6.02370E+1
1.03960E+2,2.57000E+2,2.58670E+2,-1.67029E+0,6.02058E+1
1.04600E+2,6.60000E+2,6.58984E+2,1.01569E+0,6.01857E+1
1.05240E+2,1.73000E+2,2.09120E+2,-3.61197E+1,6.01775E+1
1.05880E+2,8.20000E+1,8.89772E+1,-6.97719E+0,6.01816E+1
1.06520E+2,1.17000E+2,1.09494E+2,7.50558E+0,6.01987E+1
1.07160E+2,9.30000E+1,8.20955E+1,1.09045E+1,6.02289E+1
1.07800E+2,7.00000E+1,7.01482E+1,-1.48209E-1,6.02724E+1
1.08440E+2,6.80000E+1,6.66383E+1,1.36170E+0,6.03293E+1
1.09080E+2,1.42000E+2,1.63549E+2,-2.15490E+1,6.03993E+1
1.09720E+2,1.53000E+2,1.39097E+2,1.39026E+1,6.04822E+1
1.10360E+2,1.41000E+2,1.21422E+2,1.95777E+1,6.05774E+1
1.11000E+2,3.80000E+2,3.58497E+2,2.15034E+1,6.06844E+1
1.11640E+2,1.22000E+2,1.18371E+2,3.62869E+0,6.08024E+1
1.12280E+2,7.70000E+1,7.42522E+1,2.74780E+0,6.09305E+1
1.12920E+2,1.02000E+2,8.73761E+1,1.46239E+1,6.10677E+1
1.13560E+2,1.65000E+2,1.81765E+2,-1.67648E+1,6.12129E+1
1.14200E+2,9.00000E+1,8.33205E+1,6.67948E+0,6.13651E+1
1.14840E+2,1.14000E+2,1.27846E+2,-1.38461E+1,6.15232E+1
1.15480E+2,1.54000E+2,1.70809E+2,-1.68090E+1,6.16861E+1
1.16120E+2,9.80000E+1,8.55977E+1,1.24023E+1,6.18527E+1
1.16760E+2,1.90000E+2,1.89297E+2,7.02637E-1,6.20224E+1
1.17400E+2,1.84000E+2,1.58880E+2,2.51198E+1,6.21944E+1
1.18040E+2,7.40000E+1,7.33837E+1,6.16280E-1,6.23686E+1
1.18680E+2,6.00000E+1,6.85096E+1,-8.50960E+0,6.25448E+1
1.19320E+2,1.71000E+2,1.61292E+2,9.70790E+0,6.27237E+1
1.19960E+2,8.70000E+1,7.43224E+1,1.26776E+1,6.29065E+1
1.20600E+2,6.90000E+1,7.71230E+1,-8.12296E+0,6.30949E+1
1.21240E+2,8.40000E+1,8.06842E+1,3.31585E+0,6.32916E+1
1.21880E+2,6.00000E+1,6.69724E+1,-6.97239E+0,6.35003E+1
1.22520E+2,2.01000E+2,1.77687E+2,2.33130E+1,6.37257E+1
1.23160E+2,1.15000E+2,1.23172E+2,-8.17185E+0,6.39740E+1
1.23800E+2,1.54000E+2,1.43584E+2,1.04165E+1,6.42526E+1
1.24440E+2,1.21000E+2,1.31752E+2,-1.07518E+1,6.45709E+1
1.25080E+2,1.72000E+2,1.63040E+2,8.95976E+0,6.49400E+1
1.25720E+2,1.09000E+2,9.14956E+1,1.75044E+1,6.53733E+1
1.26360E+2,1.11000E+2,1.02702E+2,8.29837E+0,6.58864E+1
1.27000E+2,3.08000E+2,2.96853E+2,1.11474E+1,6.64979E+1
1.27640E+2,1.90000E+2,2.08500E+2,-1.84998E+1,6.72291E+1
1.28280E+2,1.17000E+2,1.21503E+2,-4.50342E+0,6.81046E+1
1.28920E+2,1.00000E+2,7.53526E+1,2.46474E+1,6.91527E+1
1.29560E+2,1.00000E+2,9.65762E+1,3.42381E+0,7.04059E+1
1.30000E+2,8.40000E+1,8.29340E+1,1.06605E+0,7.14051E+1